File: Dati_XRD.csv
2theta,Experimental
30.0009,341.25
30.0607,417.02
30.1205,275.93
30.1804,393.16
30.2402,399.7
30.3,353.35
30.3598,327.57
30.4197,366.77
30.4795,250.49
30.5393,333.7
30.5991,323.6
30.659,237.13
30.7188,445.1
30.7786,370.33
30.8384,308.84
30.8983,236.39
30.9581,424.51
31.0179,280.79
31.0778,323.56
31.1376,246.42
31.1974,261.49
31.2572,350.99
31.3171,272.73
31.3769,413.66
31.4367,325.11
31.4965,334.73
31.5564,352.18
31.6162,266.54
31.676,144.06
31.7358,314.01
31.7957,217.2
31.8555,304.76
31.9153,380.49
31.9751,353.39
32.035,376.26
32.0948,230.86
32.1546,211.7
32.2144,273.96
32.2743,303.5
32.3341,213.15
32.3939,385.34
32.4537,276.1
32.5136,185.65
32.5734,265.78
32.6332,202.52
32.693,444.67
32.7529,383.76
32.8127,317.74
32.8725,231.56
32.9324,311.45
32.9922,308.6
33.052,354.2
33.1118,280.46
33.1717,216.04
33.2315,194.85
33.2913,262.96
33.3511,361.78
33.411,302.75
33.4708,184.81
33.5306,277.55
33.5904,304.95
33.6503,260.34
33.7101,143.76
33.7699,274.41
33.8297,280.58
33.8896,250.17
33.9494,297.6
34.0092,209.4
34.069,283.25
34.1289,271.24
34.1887,280.23
34.2485,250.04
34.3083,271.16
34.3682,208.21
34.428,204.24
34.4878,240.35
34.5477,161.17
34.6075,322.81
34.6673,301.55
34.7271,284.44
34.787,223.22
34.8468,193.88
34.9066,219.77
34.9664,239.21
35.0263,240.19
35.0861,224.64
35.1459,194.48
35.2057,216.11
35.2656,204.89
35.3254,164.92
35.3852,162.45
35.445,174.36
35.5049,348.35
35.5647,283.02
35.6245,273.41
35.6843,313.01
35.7442,259.41
35.804,170.25
35.8638,226.29
35.9236,172.32
35.9835,406.32
36.0433,224.5
36.1031,304.13
36.1629,229.82
36.2228,200.77
36.2826,285.49
36.3424,307.53
36.4023,268.36
36.4621,324.67
36.5219,178.29
36.5817,263.95
36.6416,221.34
36.7014,255.28
36.7612,203.3
36.821,207.67
36.8809,306.1
36.9407,257.7
37.0005,239.56
37.0603,260.19
37.1202,240.2
37.18,130.45
37.2398,95.03
37.2996,195.17
37.3595,285.86
37.4193,202.17
37.4791,147.82
37.5389,247.16
37.5988,307.31
37.6586,238.95
37.7184,291.31
37.7782,213.71
37.8381,247.94
37.8979,301.06
37.9577,249.33
38.0175,242.12
38.0774,215.65
38.1372,207.17
38.197,192.76
38.2569,88.16
38.3167,237.36
38.3765,196.73
38.4363,227.01
38.4962,201.49
38.556,160.68
38.6158,271.53
38.6756,295.71
38.7355,247.57
38.7953,313.43
38.8551,279.8
38.9149,184.68
38.9748,224.71
39.0346,344.21
39.0944,229.71
39.1542,279.64
39.2141,322.61
39.2739,205.69
39.3337,208.45
39.3935,214.78
39.4534,348.7
39.5132,158.66
39.573,226.35
39.6328,295.3
39.6927,245.43
39.7525,258.59
39.8123,277.16
39.8721,251.31
39.932,328.74
39.9918,218.85
40.0516,316.36
40.1115,231.12
40.1713,234
40.2311,381.11
40.2909,358.6
40.3508,244.54
40.4106,241.17
40.4704,273.37
40.5302,378.57
40.5901,275.59
40.6499,208.33
40.7097,276.06
40.7695,285.05
40.8294,201.72
40.8892,302.87
40.949,313.84
41.0088,294.88
41.0687,351.85
41.1285,235.77
41.1883,236.05
41.2481,370.49
41.308,213.69
41.3678,340.15
41.4276,213.36
41.4874,211.29
41.5473,306.6
41.6071,180.6
41.6669,231.04
41.7268,238.29
41.7866,253.39
41.8464,278.9
41.9062,310.56
41.9661,329.78
42.0259,206.32
42.0857,358.52
42.1455,277.9
42.2054,263.86
42.2652,349.8
42.325,334.35
42.3848,296.49
42.4447,349.48
42.5045,292.21
42.5643,374.39
42.6241,456.18
42.684,375.04
42.7438,407.38
42.8036,320.01
42.8634,377.18
42.9233,471.12
42.9831,524.68
43.0429,611.86
43.1027,683.32
43.1626,653.17
43.2224,729.53
43.2822,929.77
43.342,961.18
43.4019,1476.28
43.4617,1749.52
43.5215,2729.39
43.5814,4182.76
43.6412,5977.8
43.701,7385.22
43.7608,8360.27
43.8207,7718.02
43.8805,6453.37
43.9403,4950.62
44.0001,3462.32
44.06,2308.71
44.1198,1828.6
44.1796,1566.46
44.2394,1445
44.2993,1396.16
44.3591,1400.75
44.4189,1665.97
44.4787,1839.11
44.5386,2268.31
44.5984,3187.69
44.6582,4310.06
44.718,5328.71
44.7779,6161.95
44.8377,6372.8
44.8975,5880.49
44.9573,5077.57
45.0172,4072.19
45.077,2870.11
45.1368,2087.87
45.1966,1303.4
45.2565,1056.03
45.3163,925.62
45.3761,770.49
45.436,624.08
45.4958,720.55
45.5556,483.63
45.6154,324.09
45.6753,296.24
45.7351,450.68
45.7949,430.52
45.8547,403.76
45.9146,480.75
45.9744,399.97
46.0342,407.15
46.094,407.94
46.1539,223.32
46.2137,345.29
46.2735,420.67
46.3333,313.29
46.3932,344
46.453,402.64
46.5128,305.99
46.5726,211.63
46.6325,270.15
46.6923,317.38
46.7521,286.09
46.8119,305.76
46.8718,343.15
46.9316,301.62
46.9914,253.24
47.0513,258.77
47.1111,386.04
47.1709,311.53
47.2307,319.69
47.2906,295.3
47.3504,292.51
47.4102,268.47
47.47,287.12
47.5299,259.86
47.5897,316.92
47.6495,310.81
47.7093,322.67
47.7692,163.52
47.829,313.86
47.8888,316.15
47.9486,196.95
48.0085,275.14
48.0683,284.95
48.1281,265.45
48.1879,343.95
48.2478,389.9
48.3076,276.99
48.3674,358.86
48.4272,319.61
48.4871,371.88
48.5469,251.18
48.6067,305.44
48.6665,316.15
48.7264,301.82
48.7862,314.71
48.846,293.61
48.9059,315.08
48.9657,276.04
49.0255,256.24
49.0853,346.43
49.1452,313.7
49.205,407.08
49.2648,399.87
49.3246,267.98
49.3845,338.06
49.4443,424.7
49.5041,401.07
49.5639,296.95
49.6238,495.66
49.6836,451.6
49.7434,452.09
49.8032,580.74
49.8631,534.46
49.9229,635.26
49.9827,635.11
50.0425,584.13
50.1024,593.7
50.1622,624.11
50.222,689.13
50.2818,795.98
50.3417,862.3
50.4015,948.35
50.4613,1181.27
50.5211,1321.82
50.581,1595.58
50.6408,1836.35
50.7006,2038.44
50.7605,2504.82
50.8203,2639.26
50.8801,2664.41
50.9399,2820.92
50.9998,2483.51
51.0596,2031.83
51.1194,1708.47
51.1792,1291.79
51.2391,930.68
51.2989,952.35
51.3587,659.18
51.4185,674.44
51.4784,642.13
51.5382,436.37
51.598,417.45
51.6578,293.5
51.7177,457.14
51.7775,330.08
51.8373,349.5
51.8971,349.39
51.957,284.53
52.0168,299.1
52.0766,335.53
52.1364,395.25
52.1963,299.29
52.2561,350.32
52.3159,316.03
52.3758,254.46
52.4356,315.52
52.4954,274.1
52.5552,266.84
52.6151,233.3
52.6749,213.17
52.7347,297.35
52.7945,184.01
52.8544,220.76
52.9142,339.9
52.974,359.53
53.0338,296.48
53.0937,174.62
53.1535,271.09
53.2133,336.59
53.2731,170.64
53.333,357.4
53.3928,259.92
53.4526,321.46
53.5124,238.38
53.5723,233.83
53.6321,251.96
53.6919,288.65
53.7517,295.09
53.8116,260.49
53.8714,157.8
53.9312,192.55
53.991,230.75
54.0509,292.34
54.1107,258.62
54.1705,177.42
54.2304,239.84
54.2902,233.1
54.35,223.13
54.4098,274.38
54.4697,284.71
54.5295,271.68
54.5893,323.97
54.6491,218.59
54.709,228.64
54.7688,218.34
54.8286,191.37
54.8884,344.69
54.9483,224.9
55.0081,164.28
55.0679,397.62
55.1277,329.11
55.1876,379.17
55.2474,257.87
55.3072,334.86
55.367,229.62
55.4269,290.41
55.4867,223.76
55.5465,267.31
55.6063,242.58
55.6662,257.56
55.726,335.16
55.7858,265.88
55.8456,267.78
55.9055,245.9
55.9653,329.53
56.0251,203.23
56.085,172.94
56.1448,230.06
56.2046,264.47
56.2644,367.96
56.3243,271.14
56.3841,267.16
56.4439,210.04
56.5037,290.75
56.5636,359.95
56.6234,249.07
56.6832,199.21
56.743,301.18
56.8029,220.71
56.8627,297.04
56.9225,407.42
56.9823,243.03
57.0422,123.38
57.102,290.06
57.1618,242.04
57.2216,175.79
57.2815,361.64
57.3413,262.81
57.4011,212.31
57.4609,316.65
57.5208,282.33
57.5806,270.49
57.6404,426.86
57.7003,257.34
57.7601,346.45
57.8199,232.72
57.8797,239.37
57.9396,228.68
57.9994,347.09
58.0592,274.96
58.119,231.67
58.1789,272.84
58.2387,341.38
58.2985,268.69
58.3583,216.88
58.4182,298.81
58.478,244.51
58.5378,330.3
58.5976,212.97
58.6575,316.67
58.7173,332.58
58.7771,215.82
58.8369,216.78
58.8968,213.25
58.9566,259.65
59.0164,357.33
59.0762,280.42
59.1361,337.32
59.1959,331.85
59.2557,345.83
59.3155,323.56
59.3754,284.94
59.4352,278.18
59.495,192.79
59.5549,202.08
59.6147,198.23
59.6745,255.18
59.7343,288.23
59.7942,261.7
59.854,149.24
59.9138,269.58
59.9736,279.17
60.0335,305.98
60.0933,237.09
60.1531,333.85
60.2129,240.44
60.2728,213.3
60.3326,274.42
60.3924,391.6
60.4522,255.97
60.5121,241.93
60.5719,305.31
60.6317,378.63
60.6915,332.17
60.7514,220.03
60.8112,407.17
60.871,237.76
60.9308,192.85
60.9907,274.43
61.0505,234.49
61.1103,238.89
61.1701,275.23
61.23,263.99
61.2898,303.42
61.3496,334.18
61.4095,304.6
61.4693,282.25
61.5291,300.92
61.5889,253.13
61.6488,337.48
61.7086,279.44
61.7684,381.75
61.8282,111.01
61.8881,389.79
61.9479,281.85
62.0077,265.33
62.0675,116.62
62.1274,195.64
62.1872,252.45
62.247,338.47
62.3068,263.48
62.3667,296.08
62.4265,265.16
62.4863,375.62
62.5461,292.66
62.606,273.07
62.6658,319.99
62.7256,231.59
62.7854,229.38
62.8453,261.71
62.9051,243.15
62.9649,247.41
63.0247,386.52
63.0846,295.56
63.1444,341.93
63.2042,351.36
63.2641,268.12
63.3239,398.35
63.3837,284.48
63.4435,391.74
63.5034,249.32
63.5632,275.75
63.623,318.31
63.6828,353.75
63.7427,337.1
63.8025,407.06
63.8623,271.49
63.9221,378.95
63.982,355.39
64.0418,431.91
64.1016,380.4
64.1614,278.08
64.2213,266.09
64.2811,368.37
64.3409,492.74
64.4007,353.17
64.4606,530.52
64.5204,553.79
64.5802,408.5
64.64,641.98
64.6999,631.01
64.7597,781.12
64.8195,887.34
64.8794,959.43
64.9392,1105.98
64.999,1330.81
65.0588,1392.33
65.1187,1442.64
65.1785,1318.95
65.2383,1367.93
65.2981,1101.01
65.358,1180.56
65.4178,1045.44
65.4776,853.53
65.5374,751.9
65.5973,736.78
65.6571,532.58
65.7169,443.54
65.7767,452.95
65.8366,440.21
65.8964,443.09
65.9562,403.96
66.016,354.71
66.0759,275.55
66.1357,324.82
66.1955,371.69
66.2553,324.03
66.3152,411.34
66.375,327.56
66.4348,231.65
66.4946,214.24
66.5545,399.83
66.6143,342.82
66.6741,207.88
66.734,330.99
66.7938,325.82
66.8536,246.51
66.9134,311.18
66.9733,240.48
67.0331,338.07
67.0929,363.65
67.1527,271.3
67.2126,336
67.2724,236.29
67.3322,295.47
67.392,346.67
67.4519,357.25
67.5117,251.28
67.5715,393.4
67.6313,337.61
67.6912,282.61
67.751,347.23
67.8108,322.93
67.8706,240.9
67.9305,292.95
67.9903,223.33
68.0501,269.8
68.1099,335.74
68.1698,290.7
68.2296,342.16
68.2894,284.17
68.3492,333.9
68.4091,359.88
68.4689,280.98
68.5287,300.42
68.5886,390.89
68.6484,359.99
68.7082,282.8
68.768,285.81
68.8279,280.85
68.8877,248.85
68.9475,310.15
69.0073,360.08
69.0672,424.18
69.127,218.27
69.1868,279.16
69.2466,380.36
69.3065,241.85
69.3663,345.12
69.4261,314.32
69.4859,273.08
69.5458,340.87
69.6056,336.36
69.6654,221.24
69.7252,314.95
69.7851,205.23
69.8449,313.34
69.9047,381.73
69.9645,311.93
70.0244,359.1
70.0842,319.41
70.144,297.71
70.2039,264.41
70.2637,353.89
70.3235,243.71
70.3833,393.34
70.4432,281.45
70.503,281.86
70.5628,250.06
70.6226,344.3
70.6825,308.61
70.7423,219.45
70.8021,230.94
70.8619,286.39
70.9218,323.07
70.9816,387.69
71.0414,296.51
71.1012,250.81
71.1611,331.6
71.2209,340.45
71.2807,341.85
71.3405,313.42
71.4004,267.72
71.4602,301.61
71.52,233.67
71.5798,238.71
71.6397,294.31
71.6995,285.71
71.7593,279.15
71.8191,424.49
71.879,328.56
71.9388,348.81
71.9986,287.96
72.0585,370.22
72.1183,325.24
72.1781,298.23
72.2379,258.61
72.2978,364.09
72.3576,356.19
72.4174,255.72
72.4772,304.72
72.5371,228.87
72.5969,364.57
72.6567,357.6
72.7165,259.77
72.7764,341.87
72.8362,234.61
72.896,333.81
72.9558,249.04
73.0157,354.86
73.0755,225.02
73.1353,421.31
73.1951,396.63
73.255,301.6
73.3148,385.27
73.3746,384.86
73.4344,392.28
73.4943,367.73
73.5541,299.82
73.6139,424.05
73.6737,397.02
73.7336,369.32
73.7934,373.01
73.8532,335.6
73.9131,427.6
73.9729,326.19
74.0327,444.31
74.0925,484.65
74.1524,396.65
74.2122,445.62
74.272,408.25
74.3318,675.39
74.3917,601.92
74.4515,792.46
74.5113,712.12
74.5711,968.2
74.631,991.31
74.6908,1236.33
74.7506,1258.99
74.8104,1352.26
74.8703,1355.87
74.9301,1313.26
74.9899,1395.14
75.0497,1215.54
75.1096,1086.48
75.1694,1107.49
75.2292,936.53
75.289,751.47
75.3489,641.69
75.4087,560.89
75.4685,475.45
75.5284,540.63
75.5882,423.74
75.648,469.37
75.7078,365.62
75.7677,529.78
75.8275,415.46
75.8873,343.69
75.9471,409.16
76.007,349.99
76.0668,397.16
76.1266,409.85
76.1864,341.25
76.2463,355.09
76.3061,358.95
76.3659,335.67
76.4257,422.61
76.4856,362.75
76.5454,417.64
76.6052,359.09
76.665,288.01
76.7249,445.69
76.7847,307.83
76.8445,382.24
76.9043,279.05
76.9642,415.87
77.024,421.36
77.0838,370.23
77.1436,379.38
77.2035,294.91
77.2633,322.16
77.3231,304.28
77.383,332.07
77.4428,450.72
77.5026,361.48
77.5624,319.01
77.6223,289.45
77.6821,289.9
77.7419,377.11
77.8017,308.1
77.8616,314.63
77.9214,319.58
77.9812,203.87
78.041,220.92
78.1009,321.07
78.1607,336.38
78.2205,353.8
78.2803,263.24
78.3402,321.52
78.4,338.56
78.4598,374.45
78.5196,204.56
78.5795,391.76
78.6393,319.89
78.6991,374.98
78.7589,269.77
78.8188,320.16
78.8786,303.04
78.9384,322.96
78.9982,342.29
79.0581,263.15
79.1179,347.6
79.1777,193.28
79.2376,219.84
79.2974,382.81
79.3572,386.08
79.417,300.89
79.4769,310.75
79.5367,246.48
79.5965,221.56
79.6563,414.63
79.7162,367.19
79.776,276.97
79.8358,389.06
79.8956,355.34
79.9555,236.92
80.0153,358.9
80.0751,398
80.1349,273.01
80.1948,294.83
80.2546,289.8
80.3144,353.43
80.3742,266.93
80.4341,301.84
80.4939,265.83
80.5537,316.52
80.6135,285.68
80.6734,321.86
80.7332,389.02
80.793,299.26
80.8529,316.81
80.9127,337.04
80.9725,306.21
81.0323,277.28
81.0922,233.53
81.152,302.89
81.2118,244.9
81.2716,375.07
81.3315,226.73
81.3913,370.48
81.4511,422.85
81.5109,340.17
81.5708,427.02
81.6306,482.52
81.6904,385.3
81.7502,388.36
81.8101,532.58
81.8699,619.51
81.9297,642.58
81.9895,656.02
82.0494,807.89
82.1092,1099.66
82.169,1046.31
82.2288,1291.23
82.2887,1395.6
82.3485,1578.07
82.4083,1659.63
82.4681,1907.74
82.528,1827.72
82.5878,1715.05
82.6476,1763.13
82.7075,1498.79
82.7673,1308.67
82.8271,1192.06
82.8869,1042.5
82.9468,973.54
83.0066,857.71
83.0664,655.53
83.1262,549.92
83.1861,526.44
83.2459,510
83.3057,399.23
83.3655,392.77
83.4254,372.64
83.4852,396.77
83.545,395.99
83.6048,372.97
83.6647,396.94
83.7245,324.54
83.7843,359
83.8441,373.58
83.904,346.12
83.9638,280.51
84.0236,277.11
84.0834,325.43
84.1433,369.4
84.2031,310.84
84.2629,325.05
84.3227,303.57
84.3826,268.38
84.4424,341.75
84.5022,259.5
84.5621,337.9
84.6219,322.23
84.6817,268.27
84.7415,262.61
84.8014,257.23
84.8612,312.77
84.921,346.68
84.9808,277.46
85.0407,303.93
85.1005,233.36
85.1603,342.42
85.2201,247
85.28,445.01
85.3398,298.65
85.3996,266.58
85.4594,226.8
85.5193,270.85
85.5791,266.64
85.6389,313.15
85.6987,295.36
85.7586,276.86
85.8184,201.73
85.8782,204.15
85.938,160.12
85.9979,290.44
86.0577,285.82
86.1175,296.14
86.1773,257.54
86.2372,292.36
86.297,165.1
86.3568,325.62
86.4167,174.61
86.4765,399.7
86.5363,248.05
86.5961,351
86.656,337.9
86.7158,248.15
86.7756,310.53
86.8354,214.05
86.8953,223.8
86.9551,330.6
87.0149,312.06
87.0747,262.12
87.1346,295.49
87.1944,367.77
87.2542,167.07
87.314,253.6
87.3739,161.17
87.4337,284.88
87.4935,216.99
87.5533,212.12
87.6132,341.05
87.673,281.98
87.7328,255.02
87.7926,352.54
87.8525,335.3
87.9123,346.37
87.9721,229.47
88.032,281.87
88.0918,226.91
88.1516,296.55
88.2114,306.6
88.2713,339.73
88.3311,335.74
88.3909,215.71
88.4507,323.16
88.5106,333.91
88.5704,350.17
88.6302,349.93
88.69,339.11
88.7499,412.52
88.8097,325.42
88.8695,332.41
88.9293,278.44
88.9892,384.94
89.049,191.9
89.1088,477.37
89.1686,360.93
89.2285,365.83
89.2883,426.74
89.3481,328.78
89.4079,402.61
89.4678,365.09
89.5276,363.53
89.5874,279.2
89.6472,317.71
89.7071,413.82
89.7669,234.42
89.8267,495.88
89.8866,469.92
89.9464,473.88
90.0062,477.64
90.066,498.29
90.1259,622.88
90.1857,488.74
90.2455,717.34
90.3053,798.98
90.3652,823.26
90.425,966.24
90.4848,995.99
90.5446,1108.22
90.6045,1182.17
90.6643,1170.76
90.7241,1246.41
90.7839,1162.09
90.8438,1312.92
90.9036,1208.24
90.9634,1203.23
91.0232,1042.73
91.0831,1073.19
91.1429,863.86
91.2027,798.41
91.2625,649.33
91.3224,709.93
91.3822,527.18
91.442,527.9
91.5018,484.19
91.5617,458.58
91.6215,537.24
91.6813,478.34
91.7412,391.03
91.801,301.1
91.8608,322.48
91.9206,312.91
91.9805,291.54
92.0403,442.86
92.1001,215.41
92.1599,272.84
92.2198,409.03
92.2796,261.39
92.3394,278.28
92.3992,256.49
92.4591,279.75
92.5189,371.74
92.5787,358.51
92.6385,367.91
92.6984,285.19
92.7582,272.54
92.818,208.14
92.8778,163.77
92.9377,321.36
92.9975,331.4
93.0573,332.12
93.1171,186.49
93.177,348.29
93.2368,250.34
93.2966,333.95
93.3565,340.25
93.4163,286.47
93.4761,328.12
93.5359,235.15
93.5958,347.41
93.6556,264.35
93.7154,305.97
93.7752,302.29
93.8351,262.5
93.8949,172.5
93.9547,354.05
94.0145,291.31
94.0744,331.66
94.1342,338.27
94.194,223.32
94.2538,403.18
94.3137,308.69
94.3735,250.79
94.4333,287.51
94.4931,217.88
94.553,320.2
94.6128,265.43
94.6726,190.73
94.7324,267.75
94.7923,188.54
94.8521,230.39
94.9119,170.47
94.9717,251.35
95.0316,280.47
95.0914,272.15
95.1512,272.89
95.2111,303.23
95.2709,287.47
95.3307,341.02
95.3905,369.96
95.4504,423.27
95.5102,247.5
95.57,338.5
95.6298,581.57
95.6897,376.44
95.7495,602.24
95.8093,519.71
95.8691,505.42
95.929,618.04
95.9888,515.83
96.0486,715.19
96.1084,603.46
96.1683,650.7
96.2281,533.59
96.2879,603.2
96.3477,486.81
96.4076,474.57
96.4674,578.23
96.5272,531.3
96.587,323.3
96.6469,316.3
96.7067,414.59
96.7665,344.71
96.8263,265.87
96.8862,315.45
96.946,160.87
97.0058,292.8
97.0657,283.57
97.1255,275.44
97.1853,187.57
97.2451,270.37
97.305,383.91
97.3648,255.54
97.4246,203.32
97.4844,291.96
97.5443,294.92
97.6041,216.94
97.6639,307.73
97.7237,372.18
97.7836,270.55
97.8434,210.55
97.9032,278.17
97.963,322.57
98.0229,335.99
98.0827,358.99
98.1425,184.06
98.2023,279.69
98.2622,211.42
98.322,348.13
98.3818,332.53
98.4416,341.77
98.5015,381.34
98.5613,470.43
98.6211,463.12
98.681,411.59
98.7408,440.51
98.8006,522.69
98.8604,645.65
98.9203,667.76
98.9801,664.01
99.0399,729.86
99.0997,819.36
99.1596,718.46
99.2194,664.42
99.2792,665.32
99.339,572.89
99.3989,573.93
99.4587,589.93
99.5185,606.42
99.5783,560.16
99.6382,327.35
99.698,385.06
99.7578,416.46
99.8176,253.75
99.8775,204.86
99.9373,373.6
99.9971,385.48
100.057,393.21
100.117,309.29
100.177,336.02
100.236,331.8
100.296,243.75
100.356,312.38
100.416,245.25
100.476,186.44
100.536,187.15
100.595,103.09
100.655,352.45
100.715,279.69
100.775,315.52
100.835,222.3
100.895,222.1
100.954,282.17
101.014,307.39
101.074,329.34
101.134,372.15
101.194,251.85
101.253,324.18
101.313,219.54
101.373,349.76
101.433,215.54
101.493,218.25
101.553,380.83
101.612,246.3
101.672,340.61
101.732,272.6
101.792,268.64
101.852,155.98
101.912,291.71
101.971,239.2
102.031,219.62
102.091,268.24
102.151,338.3
102.211,383.49
102.271,170.91
102.33,217.02
102.39,250.55
102.45,352.91
102.51,168.14
102.57,226.4
102.629,333.26
102.689,193.27
102.749,381.86
102.809,349.5
102.869,293.58
102.929,343.93
102.988,275.6
103.048,325.2
103.108,239.98
103.168,164.08
103.228,164.91
103.288,227.03
103.347,281.01
103.407,204.9
103.467,217.04
103.527,262.24
103.587,282.12
103.646,215.19
103.706,273.07
103.766,185.83
103.826,223.48
103.886,214.38
103.946,292.84
104.005,314.04
104.065,386.24
104.125,370.23
104.185,289.69
104.245,368.19
104.305,218.91
104.364,339.22
104.424,209.89
104.484,212.29
104.544,118.02
104.604,201.94
104.664,348.96
104.723,223.25
104.783,313.7
104.843,255.62
104.903,183.87
104.963,343.73
105.022,317.55
105.082,259.91
105.142,217.78
105.202,248.75
105.262,241.19
105.322,444.66
105.381,321.69
105.441,299.88
105.501,326.09
105.561,169.8
105.621,331.96
105.681,230.35
105.74,206.37
105.8,190.71
105.86,360.51
105.92,216.42
105.98,230.77
106.04,408.14
106.099,367.65
106.159,207.3
106.219,147.62
106.279,280.68
106.339,253.26
106.398,80.7
106.458,276.2
106.518,210.63
106.578,453.63
106.638,306.46
106.698,320.17
106.757,206.22
106.817,215.93
106.877,252.07
106.937,390.75
106.997,203.61
107.057,222.38
107.116,251
107.176,334.87
107.236,333.05
107.296,397.37
107.356,190.54
107.416,238.68
107.475,289.31
107.535,404.95
107.595,259.76
107.655,228.7
107.715,325.64
107.774,309.78
107.834,227.62
107.894,370.23
107.954,345.69
108.014,389.56
108.074,344.3
108.133,268.86
108.193,200.89
108.253,336.61
108.313,219.07
108.373,301.74
108.433,269.8
108.492,233.56
108.552,271.67
108.612,396.15
108.672,251.08
108.732,295.76
108.792,224.94
108.851,314.76
108.911,104.39
108.971,313.69
109.031,347.36
109.091,95.38
109.15,388.86
109.21,247.35
109.27,247.33
109.33,235.33
109.39,356.32
109.45,267.12
109.509,340.71
109.569,271.36
109.629,279.8
109.689,220.7
109.749,364.74
109.809,393.74
109.868,375.18
109.928,419.05
109.988,178.03